DATE 2015:273:16:00:00 obsn   0 az 167 el 44 freq_MHz  1420.4000 Tsys 171.000 Tant 473.534 vlsr   -2.37 glat 59.449 glon 290.565 source Sun 
Fstart 1419.397 fstop 1421.403 spacing 0.009375 bw    2.400 fbw    2.000 MHz nfreq 256 nsam 5242880 npoint 214 integ    29 sigma    0.325 bsw 0
Spectrum     27 integration periods
 263.456  275.035  286.293  297.153  308.893  319.557  330.720  340.964  350.722  360.691  370.479  378.375  388.392  398.068  406.168  415.528  420.856  427.184  433.810  440.195  446.439  451.222  453.963  458.739  464.428  466.096  468.211  471.640  472.154  474.087  477.383  476.247  477.019  475.637  477.904  475.622  475.232  473.728  471.878  472.309  469.889  468.382  465.958  464.744  463.826  461.455  457.579  456.538  454.556  453.870  449.585  448.270  447.604  447.522  445.536  444.867  440.629  440.860  439.994  438.780  437.509  437.426  436.886  441.160  438.992  438.105  438.487  438.727  439.144  441.024  458.877  444.396  443.871  447.034  448.228  451.054  451.774  453.651  454.858  458.531  460.452  458.998  463.936  467.191  470.014  473.777  473.898  477.357  480.841  483.883  484.499  486.817  488.528  490.785  494.349  494.816  495.638  498.628  499.483  502.660  502.660  505.201  506.204  506.395  506.712  510.161  506.429  508.702  508.111  508.482  505.934  505.927  506.374  503.545  502.878  502.769  501.100  497.077  496.830  494.816  492.182  489.599  487.301  486.429  483.981  480.236  477.137  474.355  471.946  478.519  468.583  464.718  462.277  458.579  457.311  454.615  453.768  449.914  448.359  446.712  445.345  444.662  441.282  438.475  438.421  438.565  436.541  436.076  434.886  435.262  434.842  435.963  435.572  435.427  436.163  722.170  438.803  437.079  437.751  440.073  440.328  440.467  441.639  442.143  446.028  446.587  449.360  449.367  451.364  455.623  455.765  457.867  458.131  459.167  464.278  465.171  464.418  466.494  467.587  467.487  466.495  470.865  468.580  467.994  468.506  465.713  465.981  462.543  461.035  456.278  453.984  450.773  445.048  442.488  437.679  431.707  426.235  419.662  413.266  404.319  397.467  390.499  382.467  371.001  361.154  352.294  342.595  333.287  322.347  311.011  300.971  291.433  280.056  269.241 
DATE 2016:347:18:22:00 obsn   0 az  54 el 46 freq_MHz  1420.4000 Tsys 171.000 Tant 22.905 vlsr   -0.02 glat -0.021 glon 90.111 source G90 
Fstart 1419.397 fstop 1421.403 spacing 0.009375 bw    2.400 fbw    2.000 MHz nfreq 256 nsam 5242880 npoint 214 integ    37 sigma    0.290 bsw 0
Spectrum     34 integration periods
 197.580  195.841  195.404  197.063  196.416  194.715  193.630  194.301  196.220  196.340  193.765  193.482  193.190  194.870  195.920  192.656  191.728  191.398  194.494  195.655  192.411  191.075  190.892  192.416  194.875  193.052  191.169  191.651  192.024  194.416  192.361  190.466  190.394  190.631  193.842  191.327  190.658  190.114  190.840  192.889  192.339  189.835  189.732  189.565  194.593  189.740  188.868  189.237  190.941  191.111  191.740  188.588  188.334  189.043  192.137  189.929  189.380  188.376  189.772  191.237  192.340  189.015  188.620  188.765  192.132  191.084  188.725  188.458  189.042  188.756  193.188  188.240  188.097  188.045  190.266  190.144  189.013  188.186  187.381  189.205  192.145  187.832  187.565  187.414  189.377  191.392  189.048  189.328  187.341  188.926  190.375  190.289  187.168  187.337  188.101  192.212  187.326  186.874  186.973  187.973  190.965  189.609  187.331  187.376  187.586  190.452  189.929  187.173  186.779  187.192  190.517  190.145  186.874  187.347  187.636  190.570  189.654  188.307  187.393  187.621  189.089  191.499  186.880  187.727  186.578  191.283  188.748  186.973  186.830  196.193  188.835  190.649  187.054  186.829  186.898  190.084  189.507  187.585  186.303  187.993  188.237  191.996  187.488  187.201  187.206  189.886  191.940  191.255  187.437  187.436  188.753  194.994  190.415  189.918  193.121  215.994  196.959  191.011  189.728  190.158  188.605  193.050  189.618  188.635  187.498  188.659  191.521  189.026  187.368  187.913  188.190  190.771  189.724  187.389  187.535  188.115  193.448  188.876  188.221  187.971  188.309  190.497  191.713  188.746  188.029  188.100  189.788  192.745  188.794  188.212  187.946  189.951  192.079  189.130  188.504  188.715  190.108  191.268  190.009  188.738  189.346  190.439  195.497  190.182  190.368  190.528  193.106  193.498  192.298  191.065  191.679  192.749  196.258  192.212 
